subject,trial,practice_index,block_type,main_task,irr_stim,indirect_task,button_label,button_pushed,ACC,RT
01,1,1,1,1,3,1,ans_hor,0,missing,missing
01,2,1,1,1,2,2,ans_ver,0,missing,missing
01,3,1,1,2,1,2,ans_ver,0,missing,missing
01,4,1,1,1,2,1,ans_hor,1,1,106.855
01,5,1,1,2,1,2,ans_ver,1,0,53.97
01,6,1,1,1,2,2,ans_ver,0,missing,missing
01,7,1,1,2,3,2,ans_ver,0,missing,missing
01,8,1,1,2,2,1,ans_hor,0,missing,missing
01,9,1,1,2,3,1,ans_hor,0,missing,missing
01,10,1,1,2,2,2,ans_ver,0,missing,missing
01,11,1,1,2,3,2,ans_ver,0,missing,missing
01,12,1,1,1,2,2,ans_ver,0,missing,missing
01,13,1,1,2,1,1,ans_hor,0,missing,missing
01,14,1,1,2,2,1,ans_hor,0,missing,missing
01,15,1,1,1,1,2,ans_ver,0,missing,missing
01,16,1,1,2,1,1,ans_hor,0,missing,missing
01,17,1,1,1,3,2,ans_ver,0,missing,missing
01,18,1,1,1,1,1,ans_hor,0,missing,missing
01,19,1,1,1,3,1,ans_hor,0,missing,missing
01,20,1,1,1,2,1,ans_hor,0,missing,missing
01,21,1,2,2,1,1,ans_gap,0,missing,missing
01,22,1,2,2,1,2,ans_gapno,0,missing,missing
01,23,1,2,1,2,1,ans_gap,0,missing,missing
01,24,1,2,2,2,2,ans_gapno,0,missing,missing
01,25,1,2,1,2,1,ans_gap,0,missing,missing
01,26,1,2,2,2,1,ans_gap,0,missing,missing
01,27,1,2,1,3,1,ans_gap,0,missing,missing
01,28,1,2,1,3,2,ans_gapno,0,missing,missing
01,29,1,2,2,1,2,ans_gapno,0,missing,missing
01,30,1,2,2,2,1,ans_gap,0,missing,missing
01,31,1,2,2,3,1,ans_gap,0,missing,missing
01,32,1,2,1,2,2,ans_gapno,0,missing,missing
01,33,1,2,1,2,2,ans_gapno,0,missing,missing
01,34,1,2,1,3,1,ans_gap,0,missing,missing
01,35,1,2,2,3,2,ans_gapno,0,missing,missing
01,36,1,2,2,1,1,ans_gap,0,missing,missing
01,37,1,2,1,2,2,ans_gapno,0,missing,missing
01,38,1,2,1,1,1,ans_gap,0,missing,missing
01,39,1,2,1,1,2,ans_gapno,0,missing,missing
01,40,1,2,2,3,2,ans_gapno,0,missing,missing
01,41,0,1,1,3,1,ans_hor,0,missing,missing
01,42,0,1,2,1,2,ans_ver,0,missing,missing
01,43,0,1,2,2,2,ans_ver,0,missing,missing
01,44,0,1,2,3,1,ans_hor,0,missing,missing
01,45,0,1,2,1,1,ans_hor,0,missing,missing
01,46,0,1,2,1,1,ans_hor,0,missing,missing
01,47,0,1,2,2,1,ans_hor,0,missing,missing
01,48,0,1,1,3,1,ans_hor,0,missing,missing
01,49,0,1,1,2,2,ans_ver,0,missing,missing
01,50,0,1,1,2,1,ans_hor,0,missing,missing
01,51,0,1,1,2,1,ans_hor,0,missing,missing
01,52,0,1,1,2,2,ans_ver,0,missing,missing
01,53,0,1,1,1,2,ans_ver,0,missing,missing
01,54,0,1,2,2,1,ans_hor,0,missing,missing
01,55,0,1,2,3,2,ans_ver,0,missing,missing
01,56,0,1,1,3,2,ans_ver,0,missing,missing
01,57,0,1,2,1,2,ans_ver,0,missing,missing
01,58,0,1,1,2,2,ans_ver,0,missing,missing
01,59,0,1,2,3,2,ans_ver,0,missing,missing
01,60,0,1,1,1,1,ans_hor,0,missing,missing
01,61,0,1,2,2,2,ans_ver,0,missing,missing
01,62,0,1,2,3,1,ans_hor,0,missing,missing
01,63,0,1,1,1,2,ans_ver,0,missing,missing
01,64,0,1,1,2,2,ans_ver,0,missing,missing
01,65,0,1,2,3,2,ans_ver,0,missing,missing
01,66,0,1,2,1,2,ans_ver,0,missing,missing
01,67,0,1,2,1,2,ans_ver,0,missing,missing
01,68,0,1,2,1,1,ans_hor,0,missing,missing
01,69,0,1,2,2,2,ans_ver,0,missing,missing
01,70,0,1,2,1,1,ans_hor,0,missing,missing
01,71,0,1,1,3,2,ans_ver,0,missing,missing
01,72,0,1,1,2,2,ans_ver,0,missing,missing
01,73,0,1,1,1,1,ans_hor,0,missing,missing
01,74,0,1,1,2,2,ans_ver,0,missing,missing
01,75,0,1,2,3,1,ans_hor,0,missing,missing
01,76,0,1,1,1,1,ans_hor,0,missing,missing
01,77,0,1,2,1,1,ans_hor,0,missing,missing
01,78,0,1,2,3,2,ans_ver,0,missing,missing
01,79,0,1,1,2,1,ans_hor,0,missing,missing
01,80,0,1,2,1,2,ans_ver,0,missing,missing
01,81,0,1,1,3,1,ans_hor,0,missing,missing
01,82,0,1,2,2,1,ans_hor,0,missing,missing
01,83,0,1,1,1,1,ans_hor,0,missing,missing
01,84,0,1,2,2,2,ans_ver,0,missing,missing
01,85,0,1,1,3,1,ans_hor,0,missing,missing
01,86,0,1,1,2,1,ans_hor,0,missing,missing
01,87,0,1,1,2,2,ans_ver,0,missing,missing
01,88,0,1,1,1,2,ans_ver,0,missing,missing
01,89,0,1,2,2,2,ans_ver,0,missing,missing
01,90,0,1,1,1,2,ans_ver,0,missing,missing
01,91,0,1,1,1,1,ans_hor,0,missing,missing
01,92,0,1,2,3,1,ans_hor,0,missing,missing
01,93,0,1,1,3,1,ans_hor,0,missing,missing
01,94,0,1,1,2,1,ans_hor,0,missing,missing
01,95,0,1,2,3,2,ans_ver,0,missing,missing
01,96,0,1,1,1,2,ans_ver,0,missing,missing
01,97,0,1,1,1,2,ans_ver,0,missing,missing
01,98,0,1,2,2,1,ans_hor,0,missing,missing
01,99,0,1,1,2,1,ans_hor,0,missing,missing
01,100,0,1,1,3,1,ans_hor,0,missing,missing
01,101,0,1,2,3,1,ans_hor,0,missing,missing
01,102,0,1,2,2,2,ans_ver,0,missing,missing
01,103,0,1,2,1,2,ans_ver,0,missing,missing
01,104,0,1,2,1,1,ans_hor,0,missing,missing
01,105,0,1,2,2,1,ans_hor,0,missing,missing
01,106,0,1,2,1,1,ans_hor,0,missing,missing
01,107,0,1,1,3,1,ans_hor,0,missing,missing
01,108,0,1,1,2,1,ans_hor,0,missing,missing
01,109,0,1,2,2,1,ans_hor,0,missing,missing
01,110,0,1,1,3,2,ans_ver,0,missing,missing
01,111,0,1,1,2,1,ans_hor,0,missing,missing
01,112,0,1,1,1,2,ans_ver,0,missing,missing
01,113,0,1,1,3,2,ans_ver,0,missing,missing
01,114,0,1,1,3,2,ans_ver,0,missing,missing
01,115,0,1,2,2,1,ans_hor,0,missing,missing
01,116,0,1,2,3,1,ans_hor,0,missing,missing
01,117,0,1,2,3,1,ans_hor,0,missing,missing
01,118,0,1,2,2,1,ans_hor,0,missing,missing
01,119,0,1,2,3,2,ans_ver,0,missing,missing
01,120,0,1,2,1,2,ans_ver,0,missing,missing
01,121,0,1,2,3,1,ans_hor,0,missing,missing
01,122,0,1,1,2,1,ans_hor,0,missing,missing
01,123,0,1,1,1,2,ans_ver,0,missing,missing
01,124,0,1,1,2,2,ans_ver,0,missing,missing
01,125,0,1,2,3,2,ans_ver,0,missing,missing
01,126,0,1,2,1,1,ans_hor,0,missing,missing
01,127,0,1,2,1,1,ans_hor,0,missing,missing
01,128,0,1,2,1,1,ans_hor,0,missing,missing
01,129,0,1,2,3,1,ans_hor,0,missing,missing
01,130,0,1,1,2,1,ans_hor,0,missing,missing
01,131,0,1,1,1,1,ans_hor,0,missing,missing
01,132,0,1,1,2,1,ans_hor,0,missing,missing
01,133,0,1,1,2,2,ans_ver,0,missing,missing
01,134,0,1,1,3,2,ans_ver,0,missing,missing
01,135,0,1,2,2,2,ans_ver,0,missing,missing
01,136,0,1,2,2,2,ans_ver,0,missing,missing
01,137,0,1,1,1,2,ans_ver,0,missing,missing
01,138,0,1,2,2,1,ans_hor,0,missing,missing
01,139,0,1,2,3,1,ans_hor,0,missing,missing
01,140,0,1,1,3,1,ans_hor,0,missing,missing
01,141,0,1,1,2,2,ans_ver,0,missing,missing
01,142,0,1,2,3,2,ans_ver,0,missing,missing
01,143,0,1,2,3,2,ans_ver,0,missing,missing
01,144,0,1,2,3,1,ans_hor,0,missing,missing
01,145,0,1,2,1,2,ans_ver,0,missing,missing
01,146,0,1,1,2,2,ans_ver,0,missing,missing
01,147,0,1,1,3,2,ans_ver,0,missing,missing
01,148,0,1,2,2,2,ans_ver,0,missing,missing
01,149,0,1,1,2,2,ans_ver,0,missing,missing
01,150,0,1,1,3,1,ans_hor,0,missing,missing
01,151,0,1,2,2,1,ans_hor,0,missing,missing
01,152,0,1,1,2,2,ans_ver,0,missing,missing
01,153,0,1,1,3,2,ans_ver,0,missing,missing
01,154,0,1,2,1,2,ans_ver,0,missing,missing
01,155,0,1,1,3,2,ans_ver,0,missing,missing
01,156,0,1,1,3,1,ans_hor,0,missing,missing
01,157,0,1,2,1,1,ans_hor,0,missing,missing
01,158,0,1,1,2,1,ans_hor,0,missing,missing
01,159,0,1,2,3,1,ans_hor,0,missing,missing
01,160,0,1,2,1,1,ans_hor,0,missing,missing
01,161,0,1,2,2,2,ans_ver,0,missing,missing
01,162,0,1,1,1,1,ans_hor,0,missing,missing
01,163,0,1,1,2,2,ans_ver,0,missing,missing
01,164,0,1,2,2,1,ans_hor,0,missing,missing
01,165,0,1,1,1,2,ans_ver,0,missing,missing
01,166,0,1,2,1,1,ans_hor,0,missing,missing
01,167,0,1,2,2,1,ans_hor,0,missing,missing
01,168,0,1,2,1,2,ans_ver,0,missing,missing
01,169,0,1,2,3,2,ans_ver,0,missing,missing
01,170,0,1,2,2,2,ans_ver,0,missing,missing
01,171,0,1,1,1,1,ans_hor,0,missing,missing
01,172,0,1,1,2,2,ans_ver,0,missing,missing
01,173,0,1,1,3,1,ans_hor,0,missing,missing
01,174,0,1,2,1,2,ans_ver,0,missing,missing
01,175,0,1,1,2,1,ans_hor,0,missing,missing
01,176,0,1,1,3,1,ans_hor,0,missing,missing
01,177,0,1,1,2,2,ans_ver,0,missing,missing
01,178,0,1,1,2,1,ans_hor,0,missing,missing
01,179,0,1,1,1,1,ans_hor,0,missing,missing
01,180,0,1,1,3,2,ans_ver,0,missing,missing
01,181,0,1,1,2,2,ans_ver,0,missing,missing
01,182,0,1,2,2,2,ans_ver,0,missing,missing
01,183,0,1,1,1,2,ans_ver,0,missing,missing
01,184,0,1,1,2,2,ans_ver,0,missing,missing
01,185,0,1,2,2,2,ans_ver,0,missing,missing
01,186,0,1,1,1,1,ans_hor,0,missing,missing
01,187,0,1,2,1,1,ans_hor,0,missing,missing
01,188,0,1,2,2,1,ans_hor,0,missing,missing
01,189,0,1,2,1,1,ans_hor,0,missing,missing
01,190,0,1,2,3,2,ans_ver,0,missing,missing
01,191,0,1,1,2,1,ans_hor,0,missing,missing
01,192,0,1,1,3,2,ans_ver,0,missing,missing
01,193,0,1,2,2,1,ans_hor,0,missing,missing
01,194,0,1,2,2,2,ans_ver,0,missing,missing
01,195,0,1,1,1,2,ans_ver,0,missing,missing
01,196,0,1,1,3,1,ans_hor,0,missing,missing
01,197,0,1,1,3,2,ans_ver,0,missing,missing
01,198,0,1,2,2,2,ans_ver,0,missing,missing
01,199,0,1,1,1,1,ans_hor,0,missing,missing
01,200,0,1,1,3,1,ans_hor,0,missing,missing
01,201,0,1,2,2,2,ans_ver,0,missing,missing
01,202,0,1,1,1,1,ans_hor,0,missing,missing
01,203,0,1,2,1,1,ans_hor,0,missing,missing
01,204,0,1,2,3,2,ans_ver,0,missing,missing
01,205,0,1,1,3,2,ans_ver,0,missing,missing
01,206,0,1,1,1,1,ans_hor,0,missing,missing
01,207,0,1,1,3,1,ans_hor,0,missing,missing
01,208,0,1,1,3,1,ans_hor,0,missing,missing
01,209,0,1,2,1,2,ans_ver,0,missing,missing
01,210,0,1,1,2,1,ans_hor,0,missing,missing
01,211,0,1,2,3,1,ans_hor,0,missing,missing
01,212,0,1,2,1,2,ans_ver,0,missing,missing
01,213,0,1,2,1,2,ans_ver,0,missing,missing
01,214,0,1,2,1,1,ans_hor,0,missing,missing
01,215,0,1,2,2,2,ans_ver,0,missing,missing
01,216,0,1,1,1,2,ans_ver,0,missing,missing
01,217,0,1,1,2,2,ans_ver,0,missing,missing
01,218,0,1,1,2,1,ans_hor,0,missing,missing
01,219,0,1,1,2,2,ans_ver,0,missing,missing
01,220,0,1,1,1,1,ans_hor,0,missing,missing
01,221,0,1,2,2,2,ans_ver,0,missing,missing
01,222,0,1,1,1,2,ans_ver,0,missing,missing
01,223,0,1,2,2,1,ans_hor,0,missing,missing
01,224,0,1,2,3,2,ans_ver,0,missing,missing
01,225,0,1,2,1,1,ans_hor,0,missing,missing
01,226,0,1,1,2,2,ans_ver,0,missing,missing
01,227,0,1,1,3,2,ans_ver,0,missing,missing
01,228,0,1,2,2,1,ans_hor,0,missing,missing
01,229,0,1,1,3,1,ans_hor,0,missing,missing
01,230,0,1,1,1,2,ans_ver,0,missing,missing
01,231,0,1,2,3,1,ans_hor,0,missing,missing
01,232,0,1,1,1,1,ans_hor,0,missing,missing
01,233,0,1,2,2,1,ans_hor,0,missing,missing
01,234,0,1,1,1,2,ans_ver,0,missing,missing
01,235,0,1,2,2,2,ans_ver,0,missing,missing
01,236,0,1,2,1,1,ans_hor,0,missing,missing
01,237,0,1,2,3,2,ans_ver,0,missing,missing
01,238,0,1,2,1,1,ans_hor,0,missing,missing
01,239,0,1,1,3,2,ans_ver,0,missing,missing
01,240,0,1,2,2,2,ans_ver,0,missing,missing
01,241,0,1,1,1,1,ans_hor,0,missing,missing
01,242,0,1,2,2,2,ans_ver,0,missing,missing
01,243,0,1,2,2,2,ans_ver,0,missing,missing
01,244,0,1,1,1,1,ans_hor,0,missing,missing
01,245,0,1,2,3,1,ans_hor,0,missing,missing
01,246,0,1,1,3,2,ans_ver,0,missing,missing
01,247,0,1,2,3,1,ans_hor,0,missing,missing
01,248,0,1,1,3,1,ans_hor,0,missing,missing
01,249,0,1,1,1,2,ans_ver,0,missing,missing
01,250,0,1,1,3,2,ans_ver,0,missing,missing
01,251,0,1,1,3,1,ans_hor,0,missing,missing
01,252,0,1,1,3,2,ans_ver,0,missing,missing
01,253,0,1,1,1,1,ans_hor,0,missing,missing
01,254,0,1,2,3,2,ans_ver,0,missing,missing
01,255,0,1,1,3,2,ans_ver,0,missing,missing
01,256,0,1,2,1,1,ans_hor,0,missing,missing
01,257,0,1,1,3,2,ans_ver,0,missing,missing
01,258,0,1,2,3,1,ans_hor,0,missing,missing
01,259,0,1,2,1,1,ans_hor,0,missing,missing
01,260,0,1,1,3,1,ans_hor,0,missing,missing
01,261,0,1,1,2,1,ans_hor,0,missing,missing
01,262,0,1,1,3,1,ans_hor,0,missing,missing
01,263,0,1,2,2,1,ans_hor,0,missing,missing
01,264,0,1,1,2,2,ans_ver,0,missing,missing
01,265,0,1,1,1,1,ans_hor,0,missing,missing
01,266,0,1,1,3,2,ans_ver,0,missing,missing
01,267,0,1,1,2,2,ans_ver,0,missing,missing
01,268,0,1,1,1,1,ans_hor,0,missing,missing
01,269,0,1,1,2,1,ans_hor,0,missing,missing
01,270,0,1,2,3,2,ans_ver,0,missing,missing
01,271,0,1,1,1,2,ans_ver,0,missing,missing
01,272,0,1,1,1,2,ans_ver,0,missing,missing
01,273,0,1,2,3,2,ans_ver,0,missing,missing
01,274,0,1,1,3,1,ans_hor,0,missing,missing
01,275,0,1,2,1,2,ans_ver,0,missing,missing
01,276,0,1,1,2,2,ans_ver,0,missing,missing
01,277,0,1,2,3,1,ans_hor,0,missing,missing
01,278,0,1,1,1,2,ans_ver,0,missing,missing
01,279,0,1,2,1,2,ans_ver,0,missing,missing
01,280,0,1,2,3,1,ans_hor,0,missing,missing
01,281,0,1,1,3,1,ans_hor,0,missing,missing
01,282,0,1,2,1,1,ans_hor,0,missing,missing
01,283,0,1,1,2,2,ans_ver,0,missing,missing
01,284,0,1,1,3,2,ans_ver,0,missing,missing
01,285,0,1,1,1,1,ans_hor,0,missing,missing
01,286,0,1,1,2,1,ans_hor,0,missing,missing
01,287,0,1,2,3,2,ans_ver,0,missing,missing
01,288,0,1,1,3,2,ans_ver,0,missing,missing
01,289,0,1,2,2,2,ans_ver,0,missing,missing
01,290,0,1,2,1,2,ans_ver,0,missing,missing
01,291,0,1,1,1,2,ans_ver,0,missing,missing
01,292,0,1,2,2,1,ans_hor,0,missing,missing
01,293,0,1,2,2,1,ans_hor,0,missing,missing
01,294,0,1,1,1,2,ans_ver,0,missing,missing
01,295,0,1,1,2,1,ans_hor,0,missing,missing
01,296,0,1,2,3,1,ans_hor,0,missing,missing
01,297,0,1,2,1,2,ans_ver,0,missing,missing
01,298,0,1,2,1,2,ans_ver,0,missing,missing
01,299,0,1,2,3,1,ans_hor,0,missing,missing
01,300,0,1,2,2,2,ans_ver,0,missing,missing
01,301,0,1,2,3,1,ans_hor,0,missing,missing
01,302,0,1,2,1,1,ans_hor,0,missing,missing
01,303,0,1,2,2,2,ans_ver,0,missing,missing
01,304,0,1,1,1,2,ans_ver,0,missing,missing
01,305,0,1,2,2,1,ans_hor,0,missing,missing
01,306,0,1,1,2,1,ans_hor,0,missing,missing
01,307,0,1,1,1,1,ans_hor,0,missing,missing
01,308,0,1,2,2,2,ans_ver,0,missing,missing
01,309,0,1,1,2,1,ans_hor,0,missing,missing
01,310,0,1,1,3,2,ans_ver,0,missing,missing
01,311,0,1,2,1,2,ans_ver,0,missing,missing
01,312,0,1,2,2,1,ans_hor,0,missing,missing
01,313,0,1,2,1,2,ans_ver,0,missing,missing
01,314,0,1,2,1,2,ans_ver,0,missing,missing
01,315,0,1,2,3,2,ans_ver,0,missing,missing
01,316,0,1,2,2,2,ans_ver,0,missing,missing
01,317,0,1,2,1,1,ans_hor,0,missing,missing
01,318,0,1,2,1,1,ans_hor,0,missing,missing
01,319,0,1,2,3,2,ans_ver,0,missing,missing
01,320,0,1,2,1,1,ans_hor,0,missing,missing
01,321,0,1,2,3,1,ans_hor,0,missing,missing
01,322,0,1,2,3,1,ans_hor,0,missing,missing
01,323,0,1,2,1,2,ans_ver,0,missing,missing
01,324,0,1,2,1,2,ans_ver,0,missing,missing
01,325,0,1,2,3,1,ans_hor,0,missing,missing
01,326,0,1,2,3,2,ans_ver,0,missing,missing
01,327,0,1,2,2,1,ans_hor,0,missing,missing
01,328,0,1,1,3,2,ans_ver,0,missing,missing
01,329,0,1,1,2,1,ans_hor,0,missing,missing
01,330,0,1,1,3,1,ans_hor,0,missing,missing
01,331,0,1,2,3,1,ans_hor,0,missing,missing
01,332,0,1,1,3,1,ans_hor,0,missing,missing
01,333,0,1,1,3,2,ans_ver,0,missing,missing
01,334,0,1,2,2,2,ans_ver,0,missing,missing
01,335,0,1,1,1,1,ans_hor,0,missing,missing
01,336,0,1,1,1,2,ans_ver,0,missing,missing
01,337,0,1,2,2,1,ans_hor,0,missing,missing
01,338,0,1,1,1,1,ans_hor,0,missing,missing
01,339,0,1,1,3,1,ans_hor,0,missing,missing
01,340,0,1,1,2,2,ans_ver,0,missing,missing
01,341,0,1,1,3,2,ans_ver,0,missing,missing
01,342,0,1,1,1,2,ans_ver,0,missing,missing
01,343,0,1,1,2,1,ans_hor,0,missing,missing
01,344,0,1,2,2,1,ans_hor,0,missing,missing
01,345,0,1,1,1,1,ans_hor,0,missing,missing
01,346,0,1,2,1,2,ans_ver,0,missing,missing
01,347,0,1,2,3,2,ans_ver,0,missing,missing
01,348,0,1,1,2,2,ans_ver,0,missing,missing
01,349,0,1,1,3,1,ans_hor,0,missing,missing
01,350,0,1,1,2,2,ans_ver,0,missing,missing
01,351,0,1,1,3,2,ans_ver,0,missing,missing
01,352,0,1,2,2,1,ans_hor,0,missing,missing
01,353,0,1,2,3,2,ans_ver,0,missing,missing
01,354,0,1,1,1,2,ans_ver,0,missing,missing
01,355,0,1,2,3,1,ans_hor,0,missing,missing
01,356,0,1,2,1,2,ans_ver,0,missing,missing
01,357,0,1,2,3,1,ans_hor,0,missing,missing
01,358,0,1,1,1,2,ans_ver,0,missing,missing
01,359,0,1,1,1,1,ans_hor,0,missing,missing
01,360,0,1,2,2,2,ans_ver,0,missing,missing
01,361,0,1,2,1,1,ans_hor,0,missing,missing
01,362,0,1,1,1,1,ans_hor,0,missing,missing
01,363,0,1,2,2,2,ans_ver,0,missing,missing
01,364,0,1,1,2,1,ans_hor,0,missing,missing
01,365,0,1,1,3,1,ans_hor,0,missing,missing
01,366,0,1,1,2,1,ans_hor,0,missing,missing
01,367,0,1,2,3,2,ans_ver,0,missing,missing
01,368,0,1,2,1,1,ans_hor,0,missing,missing
01,369,0,1,2,3,2,ans_ver,0,missing,missing
01,370,0,1,2,3,2,ans_ver,0,missing,missing
01,371,0,1,2,2,1,ans_hor,0,missing,missing
01,372,0,1,2,3,2,ans_ver,0,missing,missing
01,373,0,1,2,3,1,ans_hor,0,missing,missing
01,374,0,1,1,2,1,ans_hor,0,missing,missing
01,375,0,1,1,1,1,ans_hor,0,missing,missing
01,376,0,1,1,2,1,ans_hor,0,missing,missing
01,377,0,1,1,2,1,ans_hor,0,missing,missing
01,378,0,1,1,1,2,ans_ver,0,missing,missing
01,379,0,1,1,3,1,ans_hor,0,missing,missing
01,380,0,1,2,3,2,ans_ver,0,missing,missing
01,381,0,1,2,1,2,ans_ver,0,missing,missing
01,382,0,1,2,1,2,ans_ver,0,missing,missing
01,383,0,1,2,1,1,ans_hor,0,missing,missing
01,384,0,1,2,1,2,ans_ver,0,missing,missing
01,385,0,1,2,3,2,ans_ver,0,missing,missing
01,386,0,1,1,1,2,ans_ver,0,missing,missing
01,387,0,1,1,1,2,ans_ver,0,missing,missing
01,388,0,1,2,2,1,ans_hor,0,missing,missing
01,389,0,1,1,1,1,ans_hor,0,missing,missing
01,390,0,1,1,3,2,ans_ver,0,missing,missing
01,391,0,1,1,3,2,ans_ver,0,missing,missing
01,392,0,1,1,2,2,ans_ver,0,missing,missing
01,393,0,1,1,2,2,ans_ver,0,missing,missing
01,394,0,1,1,3,1,ans_hor,0,missing,missing
01,395,0,1,2,2,1,ans_hor,0,missing,missing
01,396,0,1,2,2,1,ans_hor,0,missing,missing
01,397,0,1,1,1,1,ans_hor,0,missing,missing
01,398,0,1,2,3,1,ans_hor,0,missing,missing
01,399,0,1,2,3,2,ans_ver,0,missing,missing
01,400,0,1,2,1,2,ans_ver,0,missing,missing
01,401,0,2,1,3,1,ans_gap,0,missing,missing
01,402,0,2,2,1,2,ans_gapno,0,missing,missing
01,403,0,2,2,2,2,ans_gapno,0,missing,missing
01,404,0,2,2,3,1,ans_gap,0,missing,missing
01,405,0,2,2,1,1,ans_gap,0,missing,missing
01,406,0,2,2,1,1,ans_gap,0,missing,missing
01,407,0,2,2,2,1,ans_gap,0,missing,missing
01,408,0,2,1,3,1,ans_gap,0,missing,missing
01,409,0,2,1,2,2,ans_gapno,0,missing,missing
01,410,0,2,1,2,1,ans_gap,0,missing,missing
01,411,0,2,1,2,1,ans_gap,0,missing,missing
01,412,0,2,1,2,2,ans_gapno,0,missing,missing
01,413,0,2,1,1,2,ans_gapno,0,missing,missing
01,414,0,2,2,2,1,ans_gap,0,missing,missing
01,415,0,2,2,3,2,ans_gapno,0,missing,missing
01,416,0,2,1,3,2,ans_gapno,0,missing,missing
01,417,0,2,2,1,2,ans_gapno,0,missing,missing
01,418,0,2,1,2,2,ans_gapno,0,missing,missing
01,419,0,2,2,3,2,ans_gapno,0,missing,missing
01,420,0,2,1,1,1,ans_gap,0,missing,missing
01,421,0,2,2,2,2,ans_gapno,0,missing,missing
01,422,0,2,2,3,1,ans_gap,0,missing,missing
01,423,0,2,1,1,2,ans_gapno,0,missing,missing
01,424,0,2,1,2,2,ans_gapno,0,missing,missing
01,425,0,2,2,3,2,ans_gapno,0,missing,missing
01,426,0,2,2,1,2,ans_gapno,0,missing,missing
01,427,0,2,2,1,2,ans_gapno,0,missing,missing
01,428,0,2,2,1,1,ans_gap,0,missing,missing
01,429,0,2,2,2,2,ans_gapno,0,missing,missing
01,430,0,2,2,1,1,ans_gap,0,missing,missing
01,431,0,2,1,3,2,ans_gapno,0,missing,missing
01,432,0,2,1,2,2,ans_gapno,0,missing,missing
01,433,0,2,1,1,1,ans_gap,0,missing,missing
01,434,0,2,1,2,2,ans_gapno,0,missing,missing
01,435,0,2,2,3,1,ans_gap,0,missing,missing
01,436,0,2,1,1,1,ans_gap,0,missing,missing
01,437,0,2,2,1,1,ans_gap,0,missing,missing
01,438,0,2,2,3,2,ans_gapno,0,missing,missing
01,439,0,2,1,2,1,ans_gap,0,missing,missing
01,440,0,2,2,1,2,ans_gapno,0,missing,missing
01,441,0,2,1,3,1,ans_gap,0,missing,missing
01,442,0,2,2,2,1,ans_gap,0,missing,missing
01,443,0,2,1,1,1,ans_gap,0,missing,missing
01,444,0,2,2,2,2,ans_gapno,0,missing,missing
01,445,0,2,1,3,1,ans_gap,0,missing,missing
01,446,0,2,1,2,1,ans_gap,0,missing,missing
01,447,0,2,1,2,2,ans_gapno,0,missing,missing
01,448,0,2,1,1,2,ans_gapno,0,missing,missing
01,449,0,2,2,2,2,ans_gapno,0,missing,missing
01,450,0,2,1,1,2,ans_gapno,0,missing,missing
01,451,0,2,1,1,1,ans_gap,0,missing,missing
01,452,0,2,2,3,1,ans_gap,0,missing,missing
01,453,0,2,1,3,1,ans_gap,0,missing,missing
01,454,0,2,1,2,1,ans_gap,0,missing,missing
01,455,0,2,2,3,2,ans_gapno,0,missing,missing
01,456,0,2,1,1,2,ans_gapno,0,missing,missing
01,457,0,2,1,1,2,ans_gapno,0,missing,missing
01,458,0,2,2,2,1,ans_gap,0,missing,missing
01,459,0,2,1,2,1,ans_gap,0,missing,missing
01,460,0,2,1,3,1,ans_gap,0,missing,missing
01,461,0,2,2,3,1,ans_gap,0,missing,missing
01,462,0,2,2,2,2,ans_gapno,0,missing,missing
01,463,0,2,2,1,2,ans_gapno,0,missing,missing
01,464,0,2,2,1,1,ans_gap,0,missing,missing
01,465,0,2,2,2,1,ans_gap,0,missing,missing
01,466,0,2,2,1,1,ans_gap,0,missing,missing
01,467,0,2,1,3,1,ans_gap,0,missing,missing
01,468,0,2,1,2,1,ans_gap,0,missing,missing
01,469,0,2,2,2,1,ans_gap,0,missing,missing
01,470,0,2,1,3,2,ans_gapno,0,missing,missing
01,471,0,2,1,2,1,ans_gap,0,missing,missing
01,472,0,2,1,1,2,ans_gapno,0,missing,missing
01,473,0,2,1,3,2,ans_gapno,0,missing,missing
01,474,0,2,1,3,2,ans_gapno,0,missing,missing
01,475,0,2,2,2,1,ans_gap,0,missing,missing
01,476,0,2,2,3,1,ans_gap,0,missing,missing
01,477,0,2,2,3,1,ans_gap,0,missing,missing
01,478,0,2,2,2,1,ans_gap,0,missing,missing
01,479,0,2,2,3,2,ans_gapno,0,missing,missing
01,480,0,2,2,1,2,ans_gapno,0,missing,missing
01,481,0,2,2,3,1,ans_gap,0,missing,missing
01,482,0,2,1,2,1,ans_gap,0,missing,missing
01,483,0,2,1,1,2,ans_gapno,0,missing,missing
01,484,0,2,1,2,2,ans_gapno,0,missing,missing
01,485,0,2,2,3,2,ans_gapno,0,missing,missing
01,486,0,2,2,1,1,ans_gap,0,missing,missing
01,487,0,2,2,1,1,ans_gap,0,missing,missing
01,488,0,2,2,1,1,ans_gap,0,missing,missing
01,489,0,2,2,3,1,ans_gap,0,missing,missing
01,490,0,2,1,2,1,ans_gap,0,missing,missing
01,491,0,2,1,1,1,ans_gap,0,missing,missing
01,492,0,2,1,2,1,ans_gap,0,missing,missing
01,493,0,2,1,2,2,ans_gapno,0,missing,missing
01,494,0,2,1,3,2,ans_gapno,0,missing,missing
01,495,0,2,2,2,2,ans_gapno,0,missing,missing
01,496,0,2,2,2,2,ans_gapno,0,missing,missing
01,497,0,2,1,1,2,ans_gapno,0,missing,missing
01,498,0,2,2,2,1,ans_gap,0,missing,missing
01,499,0,2,2,3,1,ans_gap,0,missing,missing
01,500,0,2,1,3,1,ans_gap,0,missing,missing
01,501,0,2,1,2,2,ans_gapno,0,missing,missing
01,502,0,2,2,3,2,ans_gapno,0,missing,missing
01,503,0,2,2,3,2,ans_gapno,0,missing,missing
01,504,0,2,2,3,1,ans_gap,0,missing,missing
01,505,0,2,2,1,2,ans_gapno,0,missing,missing
01,506,0,2,1,2,2,ans_gapno,0,missing,missing
01,507,0,2,1,3,2,ans_gapno,0,missing,missing
01,508,0,2,2,2,2,ans_gapno,0,missing,missing
01,509,0,2,1,2,2,ans_gapno,0,missing,missing
01,510,0,2,1,3,1,ans_gap,0,missing,missing
01,511,0,2,2,2,1,ans_gap,0,missing,missing
01,512,0,2,1,2,2,ans_gapno,0,missing,missing
01,513,0,2,1,3,2,ans_gapno,0,missing,missing
01,514,0,2,2,1,2,ans_gapno,0,missing,missing
01,515,0,2,1,3,2,ans_gapno,0,missing,missing
01,516,0,2,1,3,1,ans_gap,0,missing,missing
01,517,0,2,2,1,1,ans_gap,0,missing,missing
01,518,0,2,1,2,1,ans_gap,0,missing,missing
01,519,0,2,2,3,1,ans_gap,0,missing,missing
01,520,0,2,2,1,1,ans_gap,0,missing,missing
01,521,0,2,2,2,2,ans_gapno,0,missing,missing
01,522,0,2,1,1,1,ans_gap,0,missing,missing
01,523,0,2,1,2,2,ans_gapno,0,missing,missing
01,524,0,2,2,2,1,ans_gap,0,missing,missing
01,525,0,2,1,1,2,ans_gapno,0,missing,missing
01,526,0,2,2,1,1,ans_gap,0,missing,missing
01,527,0,2,2,2,1,ans_gap,0,missing,missing
01,528,0,2,2,1,2,ans_gapno,0,missing,missing
01,529,0,2,2,3,2,ans_gapno,0,missing,missing
01,530,0,2,2,2,2,ans_gapno,0,missing,missing
01,531,0,2,1,1,1,ans_gap,0,missing,missing
01,532,0,2,1,2,2,ans_gapno,0,missing,missing
01,533,0,2,1,3,1,ans_gap,0,missing,missing
01,534,0,2,2,1,2,ans_gapno,0,missing,missing
01,535,0,2,1,2,1,ans_gap,0,missing,missing
01,536,0,2,1,3,1,ans_gap,0,missing,missing
01,537,0,2,1,2,2,ans_gapno,0,missing,missing
01,538,0,2,1,2,1,ans_gap,0,missing,missing
01,539,0,2,1,1,1,ans_gap,0,missing,missing
01,540,0,2,1,3,2,ans_gapno,0,missing,missing
01,541,0,2,1,2,2,ans_gapno,0,missing,missing
01,542,0,2,2,2,2,ans_gapno,0,missing,missing
01,543,0,2,1,1,2,ans_gapno,0,missing,missing
01,544,0,2,1,2,2,ans_gapno,0,missing,missing
01,545,0,2,2,2,2,ans_gapno,0,missing,missing
01,546,0,2,1,1,1,ans_gap,0,missing,missing
01,547,0,2,2,1,1,ans_gap,0,missing,missing
01,548,0,2,2,2,1,ans_gap,0,missing,missing
01,549,0,2,2,1,1,ans_gap,0,missing,missing
01,550,0,2,2,3,2,ans_gapno,0,missing,missing
01,551,0,2,1,2,1,ans_gap,0,missing,missing
01,552,0,2,1,3,2,ans_gapno,0,missing,missing
01,553,0,2,2,2,1,ans_gap,0,missing,missing
01,554,0,2,2,2,2,ans_gapno,0,missing,missing
01,555,0,2,1,1,2,ans_gapno,0,missing,missing
01,556,0,2,1,3,1,ans_gap,0,missing,missing
01,557,0,2,1,3,2,ans_gapno,0,missing,missing
01,558,0,2,2,2,2,ans_gapno,0,missing,missing
01,559,0,2,1,1,1,ans_gap,0,missing,missing
01,560,0,2,1,3,1,ans_gap,0,missing,missing
01,561,0,2,2,2,2,ans_gapno,0,missing,missing
01,562,0,2,1,1,1,ans_gap,0,missing,missing
01,563,0,2,2,1,1,ans_gap,0,missing,missing
01,564,0,2,2,3,2,ans_gapno,0,missing,missing
01,565,0,2,1,3,2,ans_gapno,0,missing,missing
01,566,0,2,1,1,1,ans_gap,0,missing,missing
01,567,0,2,1,3,1,ans_gap,0,missing,missing
01,568,0,2,1,3,1,ans_gap,0,missing,missing
01,569,0,2,2,1,2,ans_gapno,0,missing,missing
01,570,0,2,1,2,1,ans_gap,0,missing,missing
01,571,0,2,2,3,1,ans_gap,0,missing,missing
01,572,0,2,2,1,2,ans_gapno,0,missing,missing
01,573,0,2,2,1,2,ans_gapno,0,missing,missing
01,574,0,2,2,1,1,ans_gap,0,missing,missing
01,575,0,2,2,2,2,ans_gapno,0,missing,missing
01,576,0,2,1,1,2,ans_gapno,0,missing,missing
01,577,0,2,1,2,2,ans_gapno,0,missing,missing
01,578,0,2,1,2,1,ans_gap,0,missing,missing
01,579,0,2,1,2,2,ans_gapno,0,missing,missing
01,580,0,2,1,1,1,ans_gap,0,missing,missing
01,581,0,2,2,2,2,ans_gapno,0,missing,missing
01,582,0,2,1,1,2,ans_gapno,0,missing,missing
01,583,0,2,2,2,1,ans_gap,0,missing,missing
01,584,0,2,2,3,2,ans_gapno,0,missing,missing
01,585,0,2,2,1,1,ans_gap,0,missing,missing
01,586,0,2,1,2,2,ans_gapno,0,missing,missing
01,587,0,2,1,3,2,ans_gapno,0,missing,missing
01,588,0,2,2,2,1,ans_gap,0,missing,missing
01,589,0,2,1,3,1,ans_gap,0,missing,missing
01,590,0,2,1,1,2,ans_gapno,0,missing,missing
01,591,0,2,2,3,1,ans_gap,0,missing,missing
01,592,0,2,1,1,1,ans_gap,0,missing,missing
01,593,0,2,2,2,1,ans_gap,0,missing,missing
01,594,0,2,1,1,2,ans_gapno,0,missing,missing
01,595,0,2,2,2,2,ans_gapno,0,missing,missing
01,596,0,2,2,1,1,ans_gap,0,missing,missing
01,597,0,2,2,3,2,ans_gapno,0,missing,missing
01,598,0,2,2,1,1,ans_gap,0,missing,missing
01,599,0,2,1,3,2,ans_gapno,0,missing,missing
01,600,0,2,2,2,2,ans_gapno,0,missing,missing
01,601,0,2,1,1,1,ans_gap,0,missing,missing
01,602,0,2,2,2,2,ans_gapno,0,missing,missing
01,603,0,2,2,2,2,ans_gapno,0,missing,missing
01,604,0,2,1,1,1,ans_gap,0,missing,missing
01,605,0,2,2,3,1,ans_gap,0,missing,missing
01,606,0,2,1,3,2,ans_gapno,0,missing,missing
01,607,0,2,2,3,1,ans_gap,0,missing,missing
01,608,0,2,1,3,1,ans_gap,0,missing,missing
01,609,0,2,1,1,2,ans_gapno,0,missing,missing
01,610,0,2,1,3,2,ans_gapno,0,missing,missing
01,611,0,2,1,3,1,ans_gap,0,missing,missing
01,612,0,2,1,3,2,ans_gapno,0,missing,missing
01,613,0,2,1,1,1,ans_gap,0,missing,missing
01,614,0,2,2,3,2,ans_gapno,0,missing,missing
01,615,0,2,1,3,2,ans_gapno,0,missing,missing
01,616,0,2,2,1,1,ans_gap,0,missing,missing
01,617,0,2,1,3,2,ans_gapno,0,missing,missing
01,618,0,2,2,3,1,ans_gap,0,missing,missing
01,619,0,2,2,1,1,ans_gap,0,missing,missing
01,620,0,2,1,3,1,ans_gap,0,missing,missing
01,621,0,2,1,2,1,ans_gap,0,missing,missing
01,622,0,2,1,3,1,ans_gap,0,missing,missing
01,623,0,2,2,2,1,ans_gap,0,missing,missing
01,624,0,2,1,2,2,ans_gapno,0,missing,missing
01,625,0,2,1,1,1,ans_gap,0,missing,missing
01,626,0,2,1,3,2,ans_gapno,0,missing,missing
01,627,0,2,1,2,2,ans_gapno,0,missing,missing
01,628,0,2,1,1,1,ans_gap,0,missing,missing
01,629,0,2,1,2,1,ans_gap,0,missing,missing
01,630,0,2,2,3,2,ans_gapno,0,missing,missing
01,631,0,2,1,1,2,ans_gapno,0,missing,missing
01,632,0,2,1,1,2,ans_gapno,0,missing,missing
01,633,0,2,2,3,2,ans_gapno,0,missing,missing
01,634,0,2,1,3,1,ans_gap,0,missing,missing
01,635,0,2,2,1,2,ans_gapno,0,missing,missing
01,636,0,2,1,2,2,ans_gapno,0,missing,missing
01,637,0,2,2,3,1,ans_gap,0,missing,missing
01,638,0,2,1,1,2,ans_gapno,0,missing,missing
01,639,0,2,2,1,2,ans_gapno,0,missing,missing
01,640,0,2,2,3,1,ans_gap,0,missing,missing
01,641,0,2,1,3,1,ans_gap,0,missing,missing
01,642,0,2,2,1,1,ans_gap,0,missing,missing
01,643,0,2,1,2,2,ans_gapno,0,missing,missing
01,644,0,2,1,3,2,ans_gapno,0,missing,missing
01,645,0,2,1,1,1,ans_gap,0,missing,missing
01,646,0,2,1,2,1,ans_gap,0,missing,missing
01,647,0,2,2,3,2,ans_gapno,0,missing,missing
01,648,0,2,1,3,2,ans_gapno,0,missing,missing
01,649,0,2,2,2,2,ans_gapno,0,missing,missing
01,650,0,2,2,1,2,ans_gapno,0,missing,missing
01,651,0,2,1,1,2,ans_gapno,0,missing,missing
01,652,0,2,2,2,1,ans_gap,0,missing,missing
01,653,0,2,2,2,1,ans_gap,0,missing,missing
01,654,0,2,1,1,2,ans_gapno,0,missing,missing
01,655,0,2,1,2,1,ans_gap,0,missing,missing
01,656,0,2,2,3,1,ans_gap,0,